t,ax,ay,az,gx,gy,gz
0.0,-2.380371,3.649902,113.146973,47.851562,44.494629,0.732422
0.010101010101010102,-3.308427829949158,2.892803182646259,90.54798204388044,40.0363490468951,36.92364149336076,1.3429852827150743
0.020202020202020204,-4.8049307653906626,3.733538752115644,81.3096425829245,15.452992168591042,24.237991469578063,1.0488335163821974
0.030303030303030304,-6.803881616383538,6.077798391469344,85.53008338057359,-25.190217752860597,6.762391637159981,-0.1442222233200753
0.04040404040404041,-5.89293878085561,4.337246057396695,95.40405669693857,-35.60099682340755,3.3870225058493904,-1.16089992939285
0.05050505050505051,-5.725817677072151,4.106080205760267,105.47275410011544,-31.078281500320088,3.0522801836022415,-1.7120622017585148
0.06060606060606061,-6.252306526108953,5.224333531356602,115.29656539202217,-12.839606956959631,5.416978179480211,-1.843451111519359
0.07070707070707072,-7.058478368584036,5.216022502491124,112.75338443161475,4.904484606357682,4.959870230196446,-2.2174480913071126
0.08080808080808081,-7.335167528343175,7.289097354934045,109.08456091434164,26.16073434090206,-0.12833900795222508,-2.636465822998269
0.09090909090909091,-7.210883225563369,10.97961387583219,105.21216105706019,48.76922894715743,-9.375918641940109,-3.3781056502688203
0.10101010101010102,-7.169938692809658,14.787465484481427,108.52048735360333,56.71248842648559,-24.934880667729807,-7.22690179167177
0.11111111111111112,-6.318704781108304,23.444321086884933,111.42025351934159,79.82574885925834,-29.614935015655416,-11.05863086183167
0.12121212121212122,-4.855973920179395,33.61372318848988,112.9600678978,118.3215464173928,-28.418537948347907,-15.40875171126093
0.13131313131313133,-2.9158127843151713,28.94751275137188,105.59236643110103,198.1792449948349,-40.043133476584146,-24.127198357438104
0.14141414141414144,-1.439109764685623,21.128779083088215,100.77218161701707,257.22389657697414,-48.56816233525857,-27.187504351363952
0.15151515151515152,-0.04943278640532511,12.94410206254447,97.55537040423226,305.1469411205142,-55.81684907156093,-25.58095462761313
0.16161616161616163,2.7005110653115,15.544952940786517,94.49067336254339,365.23984640249716,-67.45441380134315,-16.13837521342188
0.17171717171717174,4.391825213014806,23.975001511010262,93.52401350698298,393.539963467848,-74.53663227698371,-9.97524133972189
0.18181818181818182,5.672449747186771,38.18897374990075,93.90022617160808,404.78536553793225,-79.27859515769794,-5.987587983633309
0.19191919191919193,7.683052132875838,65.81614516135278,95.44748027497437,414.59015689101636,-84.32578729955584,-4.2086594001990925
0.20202020202020204,8.70432402642133,82.34095924197302,96.37186455827519,420.10336977049064,-85.02390894969429,-8.749025913207221
0.21212121212121213,9.364182080936153,93.97204063855645,97.12058224842346,426.24922197151034,-83.4119627410702,-15.97098414207135
0.22222222222222224,10.324182645139754,105.71984218753202,98.259565471638,442.2356683059021,-80.3204360878101,-22.723529060198814
0.23232323232323235,10.856550889571045,101.73267731296376,92.25874753077355,449.41794295870073,-72.49684301023919,-31.137634482234198
0.24242424242424243,10.697912460101058,92.08959480197873,83.11676991940894,450.44312195521354,-64.12457799141478,-38.47656818088341
0.25252525252525254,8.696460751558522,85.85270718055462,73.45000910590147,442.5951075315382,-60.9272386557827,-39.43161787555891
0.26262626262626265,7.2511135041639925,82.67235347460442,67.33452006169222,407.78066524887896,-58.50243325387455,-39.123615567374245
0.27272727272727276,6.488990345402636,81.43327345052657,64.65203045305078,366.4808549576266,-55.73329047775757,-38.668430552561965
0.2828282828282829,7.194126698473624,82.8850239661606,68.58420141136382,332.9661501553735,-51.170644446712785,-39.04173763384349
0.29292929292929293,8.171140854042516,89.56971304542526,80.41466562020133,285.8470814203006,-34.788116911123964,-41.13271460858095
0.30303030303030304,9.26889708623371,91.99532518378633,89.41382353906195,242.67654711381172,-12.401200965871274,-42.830454714698995
0.31313131313131315,10.491425232346947,78.3451617127644,84.2454789677143,221.30337567381673,17.529669568975756,-42.071643783997786
0.32323232323232326,11.575445611186518,72.80931631072573,53.27673315859329,210.0425727046717,27.091629502164423,-36.771715232638
0.33333333333333337,12.12848755552735,74.22642031664952,21.43870058235364,206.79164126188098,30.761419692239762,-32.22003553781232
0.3434343434343435,11.669035118205452,85.99990204523226,-0.27865493287545107,215.1192260139224,31.869029314679118,-31.276516503632656
0.3535353535353536,10.72528107793416,88.22452024528225,-12.357828091605198,208.71157930386374,28.441217662498605,-29.412577720394918
0.36363636363636365,9.830303095858829,88.91123294159948,-19.439502540037907,188.21161260478155,21.369954946498297,-25.8158221206817
0.37373737373737376,9.201431926049668,90.06967879873017,-20.41590733141498,146.05244891584562,8.958032240406958,-19.237503025446205
0.38383838383838387,8.983075397776323,94.83178416661941,-13.85121368001477,123.09199501981709,4.648357994134578,-16.15953685505386
0.393939393939394,8.533506789016956,102.80149382182479,-3.671955438706453,101.36242644299806,3.144343367342122,-14.69877515157457
0.4040404040404041,7.610890901882808,115.06147483878699,10.491439483730186,76.92558339299916,4.18332487870233,-14.9896898930466
0.4141414141414142,6.521317411314814,119.39714852185675,15.740796418119432,65.91362457060274,11.62772966623228,-19.286647474788296
0.42424242424242425,6.216408332775318,119.64605045302376,16.539835296542698,56.86762608234177,17.67587577193423,-22.55769192198633
0.43434343434343436,7.053096367411747,115.1262939675857,12.184134893204657,48.8288572282021,20.874977436589926,-23.829129918138694
0.4444444444444445,5.59777598998498,113.04244132203338,0.029851603845171937,33.48650850538282,19.667935830814933,-25.986631852394346
0.4545454545454546,4.108010651224594,110.53267948392212,-7.522877278178342,18.229493176100284,17.35010477641076,-27.58386080589731
0.4646464646464647,2.809481451119848,107.24577721761584,-8.569816424986326,3.8239351740852676,14.103782108572371,-28.39544147285691
0.4747474747474748,1.1682719674117223,98.56939046940944,-0.42954476102443273,-24.821110791938146,9.750026980547705,-27.246589779453995
0.48484848484848486,0.48210745616407846,92.03256321753877,7.875075132694882,-43.27321925340392,7.324219,-25.68488195686227
0.494949494949495,0.9822494274765786,88.4982267113118,15.693959736396753,-48.27463828366854,7.324219,-23.76767152207128
0.5050505050505051,2.762420545168605,82.1467371724312,26.779517656428997,-43.539595271175,13.67030979422372,-17.722025605518
0.5151515151515152,4.138739567556948,79.40182531300535,32.938221456276715,-41.324116267328286,21.858358389224364,-10.711776863607513
0.5252525252525253,5.109767058219818,80.35312462089736,34.18126450630712,-41.69187076206727,31.713386291099088,-2.899928063680334
0.5353535353535354,6.431928514598733,90.7568830250252,30.96675889431214,-42.022410956925334,38.324193572993664,-0.8753681008997045
0.5454545454545455,6.57786290263372,101.66549657467499,18.47702259574573,-34.7521399647806,45.0275265332786,-0.20250893732438813
0.5555555555555556,5.7279916099884645,112.56170387939703,-1.4752397664368755,-21.145489482614376,51.43655727402241,-0.7520884478520089
0.5656565656565657,5.236188641034639,113.6928503051059,-10.081790380179076,-12.00615243108468,49.67426341385035,-2.5963492456914183
0.5757575757575758,4.686562391211276,111.44841641502556,-15.04343215630539,-3.4747100512561797,44.655688687211224,-4.6857462515454
0.5858585858585859,4.074807828907758,106.65601854664479,-16.805957197833493,3.8310726846347634,37.29527567122514,-6.850556757466116
0.595959595959596,3.2155685885067813,104.45473095178224,-14.293707130324735,-0.5060368625058427,34.26748165725386,-7.096053587527838
0.6060606060606061,2.335577850789834,101.34401120923539,-7.963048841067775,-12.337635821018145,31.495386256223462,-6.890233694514179
0.6161616161616162,1.5513043248829186,97.87069083476543,0.7613000843685596,-28.776911485461525,29.852749752691427,-6.2620485605849945
0.6262626262626263,1.5595028377982516,96.73929336595388,5.844391524352947,-37.42636477472642,34.85385539189859,-5.073261501366124
0.6363636363636365,1.27819609608515,93.85482562548441,7.687129560527288,-41.415444555832465,38.49133492984962,-4.0183727272612595
0.6464646464646465,0.7685062527435494,90.12847559712844,6.4209997977413105,-43.8623134774803,41.33355637610803,-2.8450189088358377
0.6565656565656566,-0.13154865269983085,87.46922103541411,-2.718651691874931,-53.55836264250454,44.115544753148036,-0.4312346589554674
0.6666666666666667,0.4935452873519119,84.83595182208902,-10.262713865559913,-59.730309558838954,43.93014866331206,1.6287784266957392
0.6767676767676768,2.5469912330406164,83.23770135694558,-14.559447574647187,-59.976603642344635,41.624651767949345,4.393888371794965
0.686868686868687,7.435023743701767,86.57229860198325,-7.4185287040845616,-40.985662569816384,36.988747403420845,11.51040780882239
0.696969696969697,9.04541,95.25413330737908,2.122298834154755,-25.270823787143158,39.63415239022952,14.355707276213066
0.7070707070707072,8.769938206072899,105.48311664305679,8.031193670408001,-10.558248876017647,49.289881779694085,14.420706211820239
0.7171717171717172,7.387874166796162,111.37334241863394,-5.386346367625697,6.5941550256657315,72.73561383345078,11.747070200923897
0.7272727272727273,7.206064681746755,112.53834663625109,-25.108768061346836,11.680171481729728,83.42989059660671,12.865756816786464
0.7373737373737375,6.833197800261023,115.86385565127338,-52.1932259202643,11.51570691234945,85.75304993338635,14.525266359266483
0.7474747474747475,4.202644526746504,132.83463472997408,-95.67569409288643,9.825226256556244,76.92956372245122,12.9172479767707
0.7575757575757577,-0.8091422856271455,144.90894725660544,-111.71955405135742,4.905460944294143,53.2024095375851,0.990796641749423
0.7676767676767677,-5.28636810945035,149.8378303421041,-113.8333750357784,-1.5124959814487884,27.834006826098822,-12.74658489506785
0.7777777777777778,-5.393710087903978,136.79170048860928,-100.60558999472774,-9.274118113527274,13.508034989313561,-21.044914213746182
0.787878787878788,-4.306241586161235,109.97737509322798,-67.58454225171961,-18.872388421749267,-0.9414232155364513,-24.649002666180795
0.797979797979798,-2.9762618272811254,85.8120261203765,-33.910600508104956,-26.279967834881592,-11.651191866558417,-25.693473950599646
0.8080808080808082,-2.04511907317687,81.3705557692826,-16.194160879421336,-25.950359822147895,-11.857196452618503,-23.839427950795983
0.8181818181818182,-0.6202675482690787,80.2912391107474,5.89433691647738,-17.207940332011212,-3.780913451653891,-21.593302042473706
0.8282828282828284,0.5651872224957161,79.96761655238501,22.500923308738656,-5.81062911324905,7.964716292976393,-19.413899466891653
0.8383838383838385,0.8966117810395948,79.24676825633469,23.90947887037637,6.327801028017449,22.83740090881396,-17.63249136173681
0.8484848484848485,1.2866337904748735,80.77792562136709,7.2437491160424905,10.750998380289175,27.37746037201707,-16.82201654679703
0.8585858585858587,1.6884514447284173,82.76241087870109,-13.060327472290105,13.621122274846098,29.83756627944886,-16.20699023788233
0.8686868686868687,2.0902690989819566,84.74689613603506,-33.364404060622476,16.49124616940299,32.29767218688063,-15.591963928967635
0.8787878787878789,2.4920867532355,86.73138139336906,-53.668480648955075,19.36137006395991,34.75777809431243,-14.976937620052933
0.888888888888889,2.89390440748904,88.71586665070305,-73.97255723728745,22.2314939585168,37.217884001744196,-14.361911311138236
0.8989898989898991,3.295722061742583,90.70035190803705,-94.27663382562002,25.101617853073726,39.67798990917599,-13.746885002223536
0.9090909090909092,3.6975397159961227,92.68483716537102,-114.5807104139524,27.971741747630617,42.13809581660776,-13.131858693308839
0.9191919191919192,4.0993573702496615,94.669322422705,-134.88478700228478,30.841865642187507,44.59820172403953,-12.516832384394144
0.9292929292929294,4.501175024503206,96.653807680039,-155.18886359061736,33.71198953674443,47.05830763147132,-11.901806075479442
0.9393939393939394,4.902992678756745,98.63829293737298,-175.49294017894974,36.58211343130132,49.51841353890309,-11.286779766564747
0.9494949494949496,5.304810333010289,100.62277819470698,-195.79701676728234,39.45223732585824,51.978519446334886,-10.671753457650045
0.9595959595959597,5.706627987263828,102.60726345204095,-216.1010933556147,42.32236122041513,54.43862535376665,-10.056727148735348
0.9696969696969697,6.108445641517368,104.59174870937494,-236.4051699439471,45.19248511497202,56.89873126119842,-9.441700839820655
0.9797979797979799,6.510263295770911,106.57623396670894,-256.7092465322797,48.06260900952895,59.35883716863022,-8.826674530905951
0.98989898989899,6.912080950024451,108.56071922404291,-277.01332312061203,50.93273290408584,61.818943076061984,-8.211648221991256
1.0,7.31389860427799,110.54520448137689,-297.31739970894444,53.80285679864273,64.27904898349375,-7.596621913076561
