t,ax,ay,az,gx,gy,gz
0.0,-11.071777,-18.115234,93.041992,19.226074,8.728027,-6.652832
0.010101010101010102,-11.242858891310318,-20.787367124466044,90.8912512744139,10.101718698775665,6.650606798954862,-6.734299249489953
0.020202020202020204,-11.003036446767288,-25.47701916537706,91.06619507627215,2.5296394607423185,3.784038063251124,-6.383972526569289
0.030303030303030304,-10.362652335229406,-32.09952526263155,93.50521293296296,-3.3347034369615907,0.17639905715572743,-5.572762976769744
0.04040404040404041,-10.280604101782986,-33.527156862256376,92.56166396147954,2.77785601196199,-0.31588698284608674,-2.454947581324644
0.05050505050505051,-10.61491873097072,-33.531438676075666,90.98157990686528,6.804608341222738,-1.1568830452445886,-0.13030824408294572
0.06060606060606061,-11.328608956864928,-31.994687305927286,88.83352804711684,8.962185888550536,-2.457353630213245,1.428932146887829
0.07070707070707072,-12.122057965998017,-25.209045026325285,86.80857982231339,11.359063061322802,-6.713876896982551,1.9661632256630523
0.08080808080808081,-12.565738724324506,-20.46152434130965,85.4861872070987,12.971725701727964,-10.0337889849476,1.4760959946113266
0.09090909090909091,-12.680850680826818,-17.19602359388752,84.6247865374947,14.537632015947164,-13.032783024572254,-0.008709332455013652
0.10101010101010102,-11.997990565067804,-13.230500216453999,82.90529577615965,22.847130918480723,-20.807512192418137,-4.204595150458151
0.11111111111111112,-12.52043715137708,-11.492277851247273,83.2564882406704,30.836598500649032,-27.14497802406422,-7.28084900738033
0.12121212121212122,-13.719908616661687,-12.012793922060343,87.23813408735035,41.63351513229158,-32.185749100258,-9.373049426573905
0.13131313131313133,-13.597325406084261,-18.583270745747573,109.74446912374171,77.95909958966095,-34.678280407224385,-9.699938657583196
0.14141414141414144,-12.325536724279,-24.965062102902714,125.48601449901001,149.33372748170214,-27.82843935680546,-6.740694994543098
0.15151515151515152,-10.450519329971765,-30.65453556475017,134.83316174325816,235.96919181030262,-16.053122390120873,-1.6769617810079003
0.16161616161616163,-9.373408782639842,-32.66681153515768,130.62491562940062,278.13514762641563,-10.62582128868203,3.541596812527843
0.17171717171717174,-8.431822383912655,-29.402825297798778,122.61984191969566,319.9441835260156,-5.6587396838873385,11.90450502143458
0.18181818181818182,-7.627310389732092,-23.681399533179448,113.83306544357558,355.0045866456671,-1.59941812342442,20.737366692295183
0.19191919191919193,-7.177047518567499,-18.499285240088817,110.34557651198207,357.33776606354843,-0.944490920499375,24.29853478332244
0.20202020202020204,-5.8437175138361654,-7.822804790094134,108.7033841810167,361.0481543931247,-0.9833089262503079,30.246391526955822
0.21212121212121213,-4.17095389247905,4.741033081892959,108.30820824546592,366.88214510285803,-1.0473981561079122,36.45879028262663
0.22222222222222224,-2.8411663792523956,14.247775041305346,109.40672827683285,378.73459931927925,0.15023622036076012,39.06054860777059
0.23232323232323235,-1.975217809700107,29.339804707418836,104.77487450674207,401.34519940943596,3.7789072044066714,40.54279165874568
0.24242424242424243,-2.123959264801962,46.05698542634429,96.90052046536819,418.5236869736039,6.996174500841075,40.70288033378972
0.25252525252525254,-4.725712939517012,61.090243523755404,86.11137350774466,407.2223190744079,6.18312656074874,38.26373584746377
0.26262626262626265,-5.725082398603162,69.5702314827018,87.13019959182397,391.6567358054871,5.670929244667889,34.957201740987855
0.27272727272727276,-5.977043780654032,75.84242269451919,95.08297476913368,368.3042758466713,8.762972285882366,29.81033982578421
0.2828282828282829,-5.649023921111664,81.99278532007581,111.09031932752002,328.03990022783233,21.145702837773023,20.54379256527693
0.29292929292929293,-5.7275932096036914,83.5915162871671,114.95387496614266,299.54376049186845,32.38625774021537,14.830186004932589
0.30303030303030304,-5.50515473245198,81.6060548374337,110.89065261289701,270.3773701375822,45.71243370362074,10.123717642229334
0.31313131313131315,-4.344976903662872,74.29612067916833,96.34380364333187,232.36733766280415,64.4943389990271,5.499231223974778
0.32323232323232326,-3.4556737540994344,71.96408770458017,83.8563688566369,217.6521413387443,72.81107024304694,4.807970470420375
0.33333333333333337,-3.068412998780881,73.8172337725591,69.15564546140513,208.22411399721952,77.50632607945676,4.23283368386268
0.3434343434343435,-3.624244622863867,82.06344301575399,48.54012201361439,197.68821258484098,79.99512206326662,1.7855181994555647
0.3535353535353536,-5.2612052772271305,85.1431923718655,35.251442208976464,167.40320232765862,78.71485103389395,-4.644321557636928
0.36363636363636365,-6.962734261376141,85.84581367405214,24.420693016063616,136.91008820621795,76.39435471828784,-10.187295738149471
0.37373737373737376,-8.425921916250623,84.04121583273876,15.53589404324149,112.48298729658148,73.46798007445172,-12.869805772839843
0.38383838383838387,-10.986466119206106,81.58066315074774,3.3227684575299428,86.17702199699832,61.24344262822694,-14.827080722153646
0.393939393939394,-12.79868582096334,80.03805094747436,-3.53074404514701,69.62444113063411,49.9699172129398,-16.127870746602827
0.4040404040404041,-13.013749561083218,80.2613870475245,-0.21379130649810207,70.41025298315675,42.93896895179759,-16.500097128274415
0.4141414141414142,-11.21547098525025,75.3963672480368,12.16201182410708,82.33625537890315,40.02575970087857,-14.937485045612036
0.42424242424242425,-9.692477235453964,70.93310036720626,19.969841361035222,92.01030180161106,39.90696326981371,-11.255305832466279
0.43434343434343436,-8.956730878420714,68.01491598680894,19.201027843310662,96.22637562522831,43.255021416415275,-4.724525342719705
0.4444444444444445,-6.826326995039189,64.89908017039649,3.9089084342363485,104.50885951244422,45.703715556685495,-0.1415956419698281
0.4545454545454546,-4.21074108200763,63.7830582723443,-11.718685315952161,111.94983308469145,46.19066780432189,6.540529973704787
0.4646464646464647,-1.1076775986475527,65.35109495162554,-26.144628849984613,117.80934081213793,44.168725396893315,16.237603021169193
0.4747474747474748,0.7470265939797776,69.61469252464178,-32.67319080716728,116.33305298128349,42.258076325556345,21.05023608525949
0.48484848484848486,2.6133447642088155,81.51332767091132,-40.02264008062297,109.49771954498938,39.41789227271713,25.04424088371189
0.494949494949495,4.564998699927322,101.66394490936341,-48.73508493389046,97.18665659066161,35.54752429172414,28.42051927780392
0.5050505050505051,4.022241408871096,112.68998986553778,-54.239282267313115,88.44929495497621,32.418779204442124,25.70624218798411
0.5151515151515152,3.487142489024721,122.69470551495854,-60.85244208616293,72.76375821111552,25.906473849109908,18.829677295920284
0.5252525252525253,2.9872088538940256,131.4399229191078,-68.37245389891675,50.70033354417677,15.913927680123207,8.015885102333218
0.5353535353535354,2.871685473412546,129.65756788917932,-70.00627906136177,40.014455662331,-0.6718746247655751,-1.3497292435862462
0.5454545454545455,2.846708589116065,122.43646944817938,-69.62851338001443,33.088916189000265,-9.887582521589948,-6.4279503486632805
0.5555555555555556,2.9035484513284198,111.04785363870616,-67.32374519217355,29.73745007406017,-13.487765531305058,-7.83377725211774
0.5656565656565657,3.114136570576404,104.68161693718233,-59.515790389540896,36.13608550921107,-24.50313790079847,-5.808892561948478
0.5757575757575758,2.9707725254818587,102.78751548780316,-54.30778691232145,42.74809463521276,-32.32217028393413,-3.9557606955082263
0.5858585858585859,2.4305718627237725,104.91531730862881,-50.95268628924274,49.7639391049285,-37.65302678512418,-2.392968660706731
0.595959595959596,0.7232535566186675,110.0372709012238,-43.589371160438255,59.43334737878217,-45.42091927491299,-2.5548000028165574
0.6060606060606061,-0.21577639594907058,111.79390535346128,-38.8362656865568,62.344076707800696,-49.76126655267067,-3.4056508307622755
0.6161616161616162,-0.6414339065041701,110.7121162748141,-35.19191676970799,58.689523598847735,-51.721784399390636,-4.966790617534364
0.6262626262626263,-1.6695259632739896,107.04746641081057,-23.874613781379814,42.190305111349744,-55.57712961227746,-8.200305562998416
0.6363636363636365,-1.6558652480637532,105.03199338836865,-17.703154400019745,31.635383856402168,-55.05790022545073,-11.476569321853724
0.6464646464646465,-1.122696507633548,103.52991643595195,-15.574087564048064,23.955177069234683,-52.71308146869193,-14.43488064467516
0.6565656565656566,-1.2127302860865805,99.00366077730874,-20.100343222691258,12.127982363234462,-55.332252637858346,-15.13059754646423
0.6666666666666667,-1.981934229303758,91.94409451811346,-25.30207816090789,5.24204612718138,-57.51121374866759,-13.933540227735554
0.6767676767676768,-3.067549099566872,84.2756051857571,-30.091021890438956,1.8146340502119778,-59.76766291181247,-11.514050976342205
0.686868686868687,-3.798515920213432,81.0396375933535,-30.56738275911588,2.102093055899402,-63.79209033707338,-8.228804139771167
0.696969696969697,-4.276963513397856,82.75601003371548,-28.085809987375644,3.1045211839586084,-69.96320646459208,-3.0997032165927543
0.7070707070707072,-4.541232920661057,86.71073371869969,-23.88120677345608,4.166056584642119,-76.35820089646977,1.9671632460736448
0.7171717171717172,-4.409643005133791,89.72084503573947,-18.527155349670036,3.91932608254981,-79.03111410768759,2.7073547523505703
0.7272727272727273,-2.396322166958261,87.37027612334401,-8.557972117589037,2.0111575165744027,-79.77576010432661,2.958799947836696
0.7373737373737375,0.2170550843045019,82.88609670922744,1.4586544495443474,0.4489889277888536,-78.36494706011779,4.05110117931717
0.7474747474747475,2.145575892595592,78.95519772717078,5.102326384697833,2.37750906380595,-72.5793859797925,8.605691602464523
0.7575757575757577,2.463760854003317,77.70701864513278,1.737206667038584,9.231039026351226,-69.8396569569157,12.329110885046456
0.7676767676767677,1.980679775056608,80.18412435526875,-4.71264031266502,15.683619636094235,-69.48251487309066,16.39176612574921
0.7777777777777778,0.8271785418958577,90.16231053465182,-13.00494027767554,16.570927717846338,-72.7090904367013,22.118938213720014
0.787878787878788,-0.28142803966639685,98.88082275624564,-14.296621079978816,14.411113308559775,-75.92234449541863,23.404842294032395
0.797979797979798,-1.1172372695431563,106.69135757776753,-11.528731130246118,13.164852349017874,-79.7527133290304,22.081481746834925
0.8080808080808082,-1.2733455779239706,113.16576041599333,-3.9287018609519695,16.862163812666378,-85.21651825693431,17.603626722057292
0.8181818181818182,-0.6344054099922452,113.13722124803837,3.903309996647227,21.910947594562376,-86.03865566611802,14.151700131761125
0.8282828282828284,0.06849437337067796,108.18498707114344,11.585755916420416,25.243691066132705,-82.95169169884593,11.206812936909245
0.8383838383838385,0.44516686768568037,96.17331076198737,18.801132186549694,23.988114942229604,-73.95339740134544,8.779366221171152
0.8484848484848485,-0.22704696695770654,92.0481224153166,16.360435033171917,11.723882216139804,-69.44029006343159,11.923256966828081
0.8585858585858587,-1.5797965237516363,93.83815903449037,10.909277029532525,2.208972617550031,-67.47979234916777,14.910550948559557
0.8686868686868687,-3.9214272071389984,104.64252481586976,2.791624128404674,1.8803228741996167,-69.040879471426,15.691093836613657
0.8787878787878789,-4.528331508598664,112.62343397193882,10.658112675367342,1.9021299795419282,-72.40220925131295,13.000636321121162
0.888888888888889,-4.651744261920334,116.47813169883852,20.44662085158911,3.599872777125471,-74.20264090905887,10.131285964777504
0.8989898989898991,-4.497492816341046,114.65959152574675,28.833013516341964,7.821483726964849,-73.06605355027631,7.939295868535096
0.9090909090909092,-3.5516953204126094,106.14276200159377,40.57094662123754,19.278122658053768,-64.64875097466494,7.50624628754083
0.9191919191919192,-2.8734882665958756,102.23300408792922,46.476235599988534,28.729574946517317,-57.066394733298544,8.27454013328587
0.9292929292929294,-2.7097068714198054,105.94264688583579,43.651010725998596,34.093407085227184,-51.94823368108143,10.403694916336967
0.9393939393939394,-3.302782895239136,125.93426683911086,41.30041658983298,35.32730905956918,-48.894197894139296,7.916865782775665
0.9494949494949496,-3.9346837161179886,140.59323544504525,41.88330848581535,32.75196520752282,-45.23952013934199,0.8409144539525739
0.9595959595959597,-4.5411545610377715,147.14967202176578,46.01386369699405,25.908684593512568,-40.65001487132718,-11.41142591624017
0.9696969696969697,-4.901484932114649,143.54356743185178,55.565297853180155,17.97583438438423,-35.50363397806432,-17.7242063527847
0.9797979797979799,-5.08654448423987,135.32852584888872,59.87402499897422,4.63862664153403,-26.541177487010078,-24.991933365981755
0.98989898989899,-5.078320418195311,122.21110682195567,57.77688276787385,-14.97582140353131,-13.13591547480026,-33.66834527566004
1.0,-5.070096352150752,109.09368779502265,55.67974053677348,-34.59026944859665,0.26934653740955383,-42.344757185338324
