t,ax,ay,az,gx,gy,gz
0.0,15.478516,-7.263184,98.425293,12.817383,3.112793,-2.441406
0.010101010101010102,14.53059640893322,0.4917770377878137,95.58970659375578,3.7059168252707835,3.562237702946543,-0.27590079941112533
0.020202020202020204,13.7690381010101,3.9481729999999997,93.77022166666667,-1.6319196666666669,2.7361014949494944,0.8563415454545454
0.030303030303030304,13.150384744870758,3.2171531037656482,93.08161755313702,-2.847624175004771,0.5209605281864891,0.9369129889218544
0.04040404040404041,11.365961296939513,2.6687294850352146,96.57679511429,9.144028114006069,-6.027381938613768,-0.2909007625998842
0.05050505050505051,12.377730133144093,2.807101651856056,98.43383668149521,22.07381872501829,-13.732249940184268,-0.6550043038049398
0.06060606060606061,15.615485469224279,3.492058074994741,98.95064873272017,35.448869712407735,-22.216190685521134,-0.26917520863465894
0.07070707070707072,16.143674887543753,3.508563952062071,100.38666409407263,42.34009096616191,-26.96164251186275,0.43232659497423853
0.08080808080808081,17.994904306100747,1.670844306748596,103.75647224176237,45.9886357998521,-35.3199980297113,3.441214049303403
0.09090909090909091,20.805784953288985,-1.053439976560921,108.82445463902046,46.56494787875687,-45.94391327712964,8.1133476840121
0.10101010101010102,23.26145951378338,2.2455975027292574,116.93562298877842,39.33021542374713,-51.31828541612499,12.040773738407275
0.11111111111111112,24.961607684254396,6.993162792497774,131.9854700247704,18.69986582176747,-53.96227522098078,16.781900938993616
0.12121212121212122,25.988457930682898,11.550825362850478,149.5583563515475,-9.305555818577389,-53.18415602260595,22.40249164816525
0.13131313131313133,25.784869315301755,7.755936000458068,151.95255662718213,-26.121963040651867,-40.805976746551906,30.46459508003764
0.14141414141414144,28.979064526988438,9.749324924744187,165.43425123151306,-42.34071543825646,-35.30600468641112,34.54181003615477
0.15151515151515152,34.29387266888981,16.40305293424466,183.92659840387833,-56.03398686654268,-31.310778235889963,34.84056083047238
0.16161616161616163,39.942325367773186,29.46866669375018,192.85979463081304,-57.66413190511839,-12.441847711722168,27.54566101498252
0.17171717171717174,42.90728583325793,34.915892584412354,195.3244487189461,-56.54864058959047,-1.96687527685049,21.341669514785863
0.18181818181818182,44.32642619214991,35.6733692448345,195.16381033778097,-52.279507518322895,4.608072786464571,14.26437506904749
0.19191919191919193,45.157852166118005,33.38489000493595,198.62122563290686,-40.21971392409168,13.622048449581381,0.5581926931310512
0.20202020202020204,44.86467827247394,28.320926134675872,201.94323409742907,-33.065591944384366,20.959890180540395,-7.777387865917461
0.21212121212121213,44.04440517443321,20.29400364123503,205.58888486511924,-27.735372130373715,29.65037341993235,-13.40177160069241
0.22222222222222224,43.07565566504432,5.257679391294811,210.7638308430096,-21.15284096044998,46.66559683166387,-17.54172892563716
0.23232323232323235,43.474493011255646,0.04961575146352204,213.44029630635853,-17.805707913113206,68.17872042566115,-18.558108843782186
0.24242424242424243,44.2038870513858,-1.6333552340583326,212.4242001954398,-15.80324544880739,88.82438017062765,-18.35649999983201
0.25252525252525254,44.318568731463046,-3.935172954704089,202.32405372942057,-14.205898796766427,100.98879016754272,-18.028839302988864
0.26262626262626265,42.579651704983625,-9.564102095022822,178.20871041481865,-13.947460153009756,115.67030785407833,-14.444192925960445
0.27272727272727276,40.29217297639228,-14.271681939147047,153.193080264907,-13.978800773377158,127.5674138971163,-10.122210432390244
0.2828282828282829,38.26735960368985,-13.271571657655999,139.08496882500964,-13.5279312520723,129.4118793269869,-6.884149093953885
0.29292929292929293,33.32913296231619,-9.83789610606595,122.00775806781584,-13.653436172739644,126.5329731568335,-2.4243428113542125
0.30303030303030304,28.556424170307174,-6.353307476941671,108.43964695417483,-13.817363787830686,122.6056282809857,1.542465512970145
0.31313131313131315,26.05261694749315,-4.33384279236194,104.77834207410058,-13.69422602535538,119.36299246582557,3.594766934209958
0.32323232323232326,21.964651226876374,0.8482693020767278,102.35411085602671,-12.832343127360295,114.47601107617858,4.4710039035055935
0.33333333333333337,18.088243173331392,4.785156,100.49975042247182,-11.856879787522324,109.97065825324384,4.084300394895635
0.3434343434343435,15.350211127878714,4.785156,99.24308597367053,-10.983040121149699,106.97463605299376,1.6708379722272908
0.3535353535353536,11.339652107990336,-0.15662154477616674,91.76763544762723,-6.577666806277777,104.23241018976893,0.854868404127211
0.36363636363636365,6.868033639310722,-6.0717722722329475,84.75607527412448,-2.486521517305249,99.99735201852144,1.1120765729844724
0.37373737373737376,1.9136000266074857,-12.349593777326268,80.4137083499096,-0.005168795589714836,92.92549845556867,2.890379243951505
0.38383838383838387,1.2008567888656945,-14.824679169872041,80.51506360611576,1.0928472386300723,90.10764018165273,5.010365073618244
0.393939393939394,0.5245366530572916,-16.291230852077447,81.28555823924806,1.1468475673882446,88.22835618770723,8.52431542006592
0.4040404040404041,-1.0683443312206677,-17.010069645715113,82.11058883083489,-0.16013175323777928,86.88053386787,14.201507032240233
0.4141414141414142,-1.413824091254591,-17.009157686326912,81.4172942638948,-1.8455432130165543,87.17106208968761,17.582199510102477
0.42424242424242425,-1.6732518237237,-16.208653204254077,78.1428016942783,-4.861536005490129,87.94903963513104,22.038446840466285
0.43434343434343436,-2.0331256165507563,-14.384746096250966,71.41970002495347,-9.728014828374853,89.1349878335525,28.458926589208776
0.4444444444444445,-1.876642986431123,-12.615919618520724,66.94110714464037,-13.523323795590214,87.2208669685209,34.321180432258664
0.4545454545454546,-2.7989953487603407,-7.36698054104679,62.186195266666644,-17.321676438016546,85.07571039724517,38.15941526115703
0.4646464646464647,-5.306494410040466,2.790085984689533,56.756104040080054,-21.26082252064132,83.00024626504818,39.21832478206835
0.4747474747474748,-7.513264205511426,11.93101488500627,53.72547560787804,-21.12340118927891,78.36778805560678,35.383327487770046
0.48484848484848486,-9.240382151290472,17.81400834565416,51.39371141941226,-20.343232497220413,74.76049674811311,31.30725926915262
0.494949494949495,-10.45822511117797,20.208550361964278,49.74797752586613,-18.985502557466468,72.333040148305,27.110639087680937
0.5050505050505051,-10.616021244211048,15.869892647117277,46.67614955911641,-16.988463676447083,67.24127746016175,18.271384233624666
0.5151515151515152,-10.962240651330609,11.148118257903445,44.31427355532044,-15.143199742379963,63.29080794903101,12.469205439718746
0.5252525252525253,-11.521878056830094,5.958573895555036,42.618807426589456,-13.410652454649838,60.37156471584952,9.751091512189268
0.5353535353535354,-13.082620165725398,-3.753609304335874,38.995944866695034,-9.933350964256736,52.56785417137301,9.104152100584125
0.5454545454545455,-13.902551016104063,-10.255872370223749,37.6071913805013,-6.168871598612851,44.091610634525786,10.731842052347742
0.5555555555555556,-13.817931828367819,-13.360959767804259,38.576865641520406,-2.3557260522759167,35.28355976797427,14.4179573655064
0.5656565656565657,-9.60597931021933,-9.297373102610926,44.41260404617647,-3.1387700796773106,32.76957606281093,16.025258157241176
0.5757575757575758,-13.086835406267882,-6.450993283031409,49.16075397111765,-4.800945129157474,28.940596183133092,16.514905233304304
0.5858585858585859,-21.569336537712413,-4.569113860676165,52.89381369438834,-6.612978902609362,24.46560175871406,16.161654414101402
0.595959595959596,-19.192854279244976,-3.03669241033692,54.483598363749685,-2.1468311521002814,24.342679903779995,15.99775950260968
0.6060606060606061,-18.465595458708325,2.2265148230778427,49.88095812646378,-0.40236986946200604,23.368647851468292,14.350771640171317
0.6161616161616162,-18.895627324863362,10.10768366284257,40.93297843566379,-0.5677664804961537,21.797375981846372,11.663069936203888
0.6262626262626263,-19.325659191018396,17.988852502607212,31.984998744863898,-0.7331630915302996,20.22610411222447,8.975368232236487
0.6363636363636365,-19.755691057173433,25.870021342371942,23.037019054063904,-0.8985597025644472,18.654832242602545,6.2876665282690585
0.6464646464646465,-20.185722923328466,33.75119018213659,14.089039363264007,-1.063956313598593,17.083560372980642,3.5999648243016598
0.6565656565656566,-20.6157547894835,41.63235902190123,5.141059672464117,-1.2293529246327388,15.512288503358738,0.9122631203342593
0.6666666666666667,-21.045786655638537,49.513527861665956,-3.806920018335873,-1.3947495356668864,13.941016633736817,-1.7754385836331679
0.6767676767676768,-21.47581852179357,57.3946967014306,-12.754899709135763,-1.5601461467010322,12.369744764114913,-4.46314028760057
0.686868686868687,-21.90585038794861,65.27586554119532,-21.70287939993576,-1.7255427577351798,10.798472894492992,-7.150841991567997
0.696969696969697,-22.335882254103645,73.15703438095996,-30.650859090735658,-1.8909393687693257,9.227201024871087,-9.838543695535396
0.7070707070707072,-22.76591412025868,81.0382032207247,-39.598838781535655,-2.0563359798034733,7.655929155249169,-12.526245399502827
0.7171717171717172,-23.19594598641371,88.91937206048934,-48.54681847233554,-2.221732590837619,6.084657285627262,-15.213947103470225
0.7272727272727273,-23.625977852568745,96.80054090025398,-57.494798163135435,-2.387129201871765,4.5133854160053595,-17.901648807437628
0.7373737373737375,-24.056009718723786,104.6817097400187,-66.44277785393544,-2.5525258129059125,2.942113546383439,-20.589350511405055
0.7474747474747475,-24.48604158487882,112.56287857978334,-75.39075754473532,-2.7179224239400583,1.3708416767615326,-23.277052215372454
0.7575757575757577,-24.916073451033856,120.44404741954807,-84.33873723553532,-2.883319034974206,-0.200430192860388,-25.96475391933988
0.7676767676767677,-25.34610531718889,128.32521625931273,-93.2867169263352,-3.0487156460083518,-1.7717020624822908,-28.652455623307286
0.7777777777777778,-25.776137183343923,136.20638509907735,-102.23469661713509,-3.2141122570424976,-3.3429739321041936,-31.340157327274685
0.787878787878788,-26.20616904949896,144.0875539388421,-111.18267630793508,-3.379508868076645,-4.914245801726118,-34.027859031242116
0.797979797979798,-26.636200915653994,151.96872277860672,-120.130655998735,-3.5449054791107915,-6.4855176713480205,-36.71556073520951
0.8080808080808082,-27.066232781809035,159.84989161837146,-129.07863568953496,-3.710302090144939,-8.056789540969945,-39.40326243917694
0.8181818181818182,-27.496264647964065,167.7310604581361,-138.02661538033487,-3.875698701179085,-9.628061410591847,-42.09096414314435
0.8282828282828284,-27.9262965141191,175.61222929790083,-146.97459507113487,-4.0410953122132325,-11.199333280213764,-44.77866584711177
0.8383838383838385,-28.356328380274135,183.49339813766548,-155.92257476193475,-4.206491923247379,-12.770605149835667,-47.46636755107917
0.8484848484848485,-28.78636024642917,191.3745669774301,-164.87055445273464,-4.371888534281524,-14.341877019457577,-50.154069255046565
0.8585858585858587,-29.21639211258421,199.25573581719485,-173.81853414353463,-4.537285145315672,-15.913148889079494,-52.841770959014
0.8686868686868687,-29.646423978739243,207.13690465695947,-182.76651383433455,-4.7026817563498176,-17.484420758701397,-55.52947266298139
0.8787878787878789,-30.07645584489428,215.0180734967242,-191.71449352513451,-4.868078367383966,-19.05569262832332,-58.217174366948825
0.888888888888889,-30.506487711049314,222.89924233648884,-200.66247321593443,-5.033474978418111,-20.626964497945224,-60.90487607091622
0.8989898989898991,-30.93651957720435,230.78041117625358,-209.6104529067344,-5.198871589452259,-22.198236367567148,-63.59257777488365
0.9090909090909092,-31.366551443359384,238.66158001601823,-218.5584325975343,-5.364268200486405,-23.76950823718905,-66.28027947885106
0.9191919191919192,-31.796583309514418,246.54274885578286,-227.50641228833422,-5.529664811520551,-25.340780106810953,-68.96798118281845
0.9292929292929294,-32.22661517566945,254.42391769554757,-236.4543919791342,-5.695061422554699,-26.912051976432878,-71.65568288678588
0.9393939393939394,-32.656647041824485,262.3050865353122,-245.4023716699341,-5.860458033588844,-28.48332384605478,-74.34338459075327
0.9494949494949496,-33.086678907979525,270.18625537507694,-254.35035136073407,-6.025854644622992,-30.054595715676697,-77.03108629472071
0.9595959595959597,-33.51671077413456,278.0674242148416,-263.298331051534,-6.1912512556571375,-31.6258675852986,-79.71878799868811
0.9696969696969697,-33.94674264028959,285.94859305460625,-272.2463107423339,-6.356647866691284,-33.19713945492051,-82.4064897026555
0.9797979797979799,-34.37677450644463,293.82976189437096,-281.19429043313386,-6.522044477725431,-34.76841132454243,-85.09419140662294
0.98989898989899,-34.80680637259967,301.7109307341356,-290.14227012393377,-6.687441088759577,-36.33968319416433,-87.78189311059033
1.0,-35.2368382387547,309.59209957390027,-299.0902498147336,-6.852837699793723,-37.91095506378623,-90.46959481455774
