t,ax,ay,az,gx,gy,gz
0.0,20.373535,3.759766,93.994141,9.70459,15.380859,20.019531
0.010101010101010102,22.910134670318783,16.62277995636512,93.68320245694142,2.5039202276048247,15.667249198866074,15.478199937618704
0.020202020202020204,22.450909878471805,23.20922371814025,92.37283295212299,-3.595708703819378,15.17906161521178,9.491335384124639
0.030303030303030304,19.19179988590038,23.551394815424363,90.14611289178609,-8.553120307092895,13.959449298069924,2.2547964647078675
0.04040404040404041,19.272826785678237,18.211708180808348,89.62753940565969,-10.943419824506206,13.351745558413818,0.026550746850268148
0.05050505050505051,20.46760768896084,8.629498528507082,88.86268722746593,-7.173775314541348,11.170933988766794,-1.3635615366859084
0.06060606060606061,22.586635063398834,-4.424067380438458,87.82887973056063,2.1474037909205475,7.535593335922567,-1.906389906489368
0.07070707070707072,23.09558285161118,-10.499126777740546,86.04352321416167,10.10476188835969,3.617503482936139,-1.058143813400018
0.08080808080808081,25.229842326008253,-19.55084966174535,85.5465261591646,23.832714831230632,-5.68718532771206,2.5442458218477775
0.09090909090909091,28.41408182644524,-30.150825686164712,86.32196953259684,41.647659520571196,-19.04023960332141,8.391192656675614
0.10101010101010102,27.892657239990246,-29.51533976342046,89.38533914487577,50.568908158450675,-26.86160840014628,13.48322994662989
0.11111111111111112,24.036927094705,-17.980423449590056,98.91668232568932,57.737892237396856,-39.56494569260035,21.8847908178442
0.12121212121212122,18.413983541601773,2.4739812738937097,114.64840360176574,61.19683942426168,-54.399155854820734,31.538684445356587
0.13131313131313133,18.71809572677636,32.063284866195765,144.03222644281539,42.53913940474993,-56.412871930341524,30.757855570634348
0.14141414141414144,20.620723264579336,48.801765271408634,166.0979549541886,25.88044459571664,-53.183217794116395,26.57661451672131
0.15151515151515152,24.12806252678435,55.584541022421,185.2349261274499,8.922200888741559,-43.70407402405555,18.952292146527153
0.16161616161616163,31.447466739995598,50.42374126658722,214.9756905210721,-17.91561343049898,-15.460272033761747,3.031554781086122
0.17171717171717174,34.20522102469978,40.385040326325495,227.69589590965253,-34.05010526970927,6.060227849221723,-5.643429747524232
0.18181818181818182,34.592096980430554,25.689508986537724,228.32362233296814,-45.50301109096948,25.697298891571577,-8.705765919321305
0.19191919191919193,34.87017263175609,0.22922518341554365,212.2524832775399,-61.124322300723364,53.259507096478636,-2.326382620677781
0.20202020202020204,34.13616499135455,-8.320684631183864,198.41917319963582,-67.53274949903954,64.87506845460169,4.966414051684641
0.21212121212121213,32.786171565591715,-3.7434289676484926,186.8198298198441,-68.33100436407335,66.35705097307768,12.404699281044048
0.22222222222222224,30.927891570068365,20.802385381513634,179.8739915823685,-64.49055867914956,58.09802884592712,18.640260713028184
0.23232323232323235,33.02548808275665,35.11671724707416,193.03312509593758,-60.926593010097505,53.94139351486956,13.328882031488314
0.24242424242424243,36.232012541315875,42.23844421341593,211.64699211487203,-58.11937586486505,53.13972590878724,4.441407663608209
0.25252525252525254,37.91023311230043,37.903040060824566,221.847942388225,-57.625781420711746,58.61039687857869,-1.1937950122079553
0.26262626262626265,40.93330810624124,27.39499798254623,228.74499820854285,-53.207226820485154,73.77376027696712,-8.098628332606658
0.27272727272727276,43.72180521845991,16.636632989195483,231.9403604982007,-47.501089735047046,90.21094627540329,-14.012494970787191
0.2828282828282829,44.45975741085085,11.504135300039312,227.9686859940208,-42.15301042258878,100.3266933078317,-15.795187622108253
0.29292929292929293,44.25509035032646,4.937717868699458,213.5478433316469,-30.960369852137543,116.02248722224111,-16.428076765908493
0.30303030303030304,43.74546468354749,-0.760827520025898,197.74421328558626,-21.03771922565761,130.41807598973546,-16.370209016412446
0.31313131313131315,43.10135381614058,-3.1060528660788806,185.78686707878296,-18.725525813237436,137.31336850852108,-15.296690453079687
0.32323232323232326,40.031807434119166,-7.441560371981277,165.05597325031798,-18.44574427731832,145.89538678250656,-11.052922582896866
0.33333333333333337,35.637285352498445,-10.30655736767792,143.08911983247464,-17.794415904767952,153.023579639827,-5.746083921876634
0.3434343434343435,29.708378211046394,-8.793493598815855,123.41106970750425,-15.163000947460986,155.98392197202904,0.0923678883402772
0.3535353535353536,26.02757183904759,-6.789700667968216,112.83557779652915,-13.684170287054275,156.15237324236747,3.1492378659395546
0.36363636363636365,23.001855473451172,-3.8961861169364953,102.4718329246161,-12.043099727390043,154.57320346283166,5.884101031858594
0.37373737373737376,20.323959774171144,0.4626046016568921,88.97523819524802,-9.65359274380213,150.8241494838396,9.097575870994628
0.38383838383838387,19.0370861134328,3.8883364601496537,84.21580204058122,-8.554425514776938,148.33407272759646,9.521484
0.393939393939394,17.2914940163375,6.595465021940519,80.10165779806938,-9.188725408188215,145.85979131537766,9.097612343725668
0.4040404040404041,14.458172659793604,8.366290954121176,74.8797808311374,-12.31855703726071,143.10059803301027,7.985698653061965
0.4141414141414142,12.382703196374708,7.7642473854279705,71.51019237731778,-15.359274218216584,142.1226046009981,7.65258926329787
0.42424242424242425,9.879897848981393,5.40107174522936,66.93843871063444,-19.719258981362056,141.09184670967406,7.691978845401619
0.43434343434343436,6.6362831127797435,0.876434570561111,60.32803499987809,-26.00119558994006,139.69586034818943,8.143621531334944
0.4444444444444445,4.601328996433103,-6.921528980239028,54.02361690134856,-28.137361521471156,137.7520144756181,12.67353873004008
0.4545454545454546,2.438954142378207,-10.167475469511682,48.55309554034682,-26.260571114996637,135.6543527060169,16.20095002715923
0.4646464646464647,-0.04072725930759491,-6.730869677842899,44.201171330067936,-19.312470010180935,133.40766092670754,17.865165705539116
0.4747474747474748,0.06998471632762304,1.586109763585056,33.104417258358495,-4.117974326408099,125.1394028668864,14.277629479662611
0.48484848484848486,-0.4500279292763112,7.1889212034571806,24.953807664592702,6.94212801578915,117.43980403321693,10.44938077389417
0.494949494949495,-1.8000679038607852,9.561719546998916,20.38821787142753,13.037764007182652,110.6896034900201,6.644722724635602
0.5050505050505051,-5.316083986934766,14.756165475307217,19.79409186657249,23.89565439267603,97.00873855745459,-2.693968493587395
0.5151515151515152,-7.760259320510015,17.864684481290364,20.58748692784399,31.058363467045748,82.13461121313246,-13.780385613122656
0.5252525252525253,-9.075831667959,18.534044394263038,22.773053979393186,34.28182502523786,66.39982197047786,-26.480481289368416
0.5353535353535354,-12.042540245231073,4.354320626481623,24.955179078761063,37.14228810453652,70.20015107884598,-30.117355785469744
0.5454545454545455,-15.948364830718843,-12.159022600723263,24.840344777526212,38.36328655561483,69.92292433959167,-30.939555267528572
0.5555555555555556,-20.636371931585153,-30.36690171565195,22.631278595576994,38.001810793883294,66.00849167270623,-29.079605589082767
0.5656565656565657,-23.15602741533362,-36.60840239798159,20.943274124669976,35.69624384328701,65.14390406623262,-24.797837624211766
0.5757575757575758,-24.125017891053908,-41.531518121193365,17.231646332928904,24.767424498683916,63.93894545412227,-13.966313743434947
0.5858585858585859,-23.85638586902794,-44.675717372152455,12.124325953103192,7.454437253552767,62.39383196964057,1.628382095392391
0.595959595959596,-23.73404045135825,-38.03642200083615,10.199420037904384,-2.2516572705627063,59.94691760270947,10.274146993687303
0.6060606060606061,-23.611695033688566,-31.397126629519903,8.274514122705597,-11.957751794678074,57.50000323577839,18.919911891982117
0.6161616161616162,-23.489349616018877,-24.75783125820359,6.349608207506788,-21.66384631879355,55.053088868847276,27.565676790277028
0.6262626262626263,-23.36700419834919,-18.11853588688735,4.424702292308,-31.369940842908914,52.6061745019162,36.211441688571846
0.6363636363636365,-23.2446587806795,-11.479240515571036,2.499796377109192,-41.07603536702439,50.15926013498509,44.85720658686676
0.6464646464646465,-23.122313363009816,-4.8399451442547985,0.5748904619104049,-50.78212989113976,47.71234576805401,53.502971485161574
0.6565656565656566,-22.999967945340128,1.7993502270614457,-1.3500154532883837,-60.48822441525512,45.265431401122925,62.14873638345639
0.6666666666666667,-22.87762252767044,8.438645598377754,-3.274921368487192,-70.19431893937059,42.81851703419182,70.7945012817513
0.6767676767676768,-22.75527711000075,15.077940969693998,-5.199827283685979,-79.90041346348596,40.37160266726074,79.44026618004611
0.686868686868687,-22.632931692331063,21.717236341010306,-7.124733198884789,-89.60650798760143,37.924688300329635,88.08603107834102
0.696969696969697,-22.510586274661378,28.356531712326543,-9.049639114083574,-99.3126025117168,35.47777393339855,96.73179597663584
0.7070707070707072,-22.38824085699169,34.995827083642865,-10.974545029282384,-109.01869703583228,33.03085956646744,105.37756087493075
0.7171717171717172,-22.265895439322,41.6351224549591,-12.899450944481172,-118.72479155994765,30.583945199536362,114.02332577322557
0.7272727272727273,-22.143550021652317,48.27441782627534,-14.824356859679957,-128.43088608406302,28.137030832605284,122.66909067152038
0.7373737373737375,-22.02120460398263,54.91371319759166,-16.749262774878765,-138.1369806081785,25.690116465674173,131.31485556981528
0.7474747474747475,-21.89885918631294,61.5530085689079,-18.674168690077558,-147.84307513229388,23.24320209874309,139.9606204681101
0.7575757575757577,-21.77651376864325,68.1923039402242,-20.599074605276364,-157.54916965640933,20.796287731811987,148.60638536640502
0.7676767676767677,-21.654168350973567,74.83159931154044,-22.52398052047515,-167.2552641805247,18.349373364880904,157.25215026469982
0.7777777777777778,-21.53182293330388,81.4708946828567,-24.448886435673934,-176.96135870464008,15.902458997949822,165.89791516299465
0.787878787878788,-21.40947751563419,88.110190054173,-26.373792350872748,-186.66745322875553,13.455544631018718,174.54368006128956
0.797979797979798,-21.287132097964506,94.74948542548925,-28.298698266071533,-196.3735477528709,11.008630264087635,183.18944495958436
0.8080808080808082,-21.164786680294817,101.38878079680556,-30.22360418127034,-206.0796422769864,8.561715897156525,191.83520985787928
0.8181818181818182,-21.04244126262513,108.02807616812179,-32.14851009646913,-215.78573680110176,6.114801530225449,200.4809747561741
0.8282828282828284,-20.92009584495544,114.66737153943812,-34.07341601166794,-225.49183132521722,3.6678871632943384,209.12673965446902
0.8383838383838385,-20.797750427285756,121.30666691075434,-35.99832192686672,-235.1979258493326,1.220972796363256,217.77250455276382
0.8484848484848485,-20.675405009616068,127.9459622820706,-37.923227842065515,-244.90402037344796,-1.2259415705678194,226.41826945105865
0.8585858585858587,-20.55305959194638,134.58525765338692,-39.84813375726432,-254.61011489756342,-3.6728559374989302,235.06403434935356
0.8686868686868687,-20.43071417427669,141.22455302470314,-41.773039672463106,-264.31620942167876,-6.119770304430013,243.70979924764836
0.8787878787878789,-20.308368756607003,147.86384839601948,-43.69794558766192,-274.02230394579425,-8.566684671361124,252.35556414594328
0.888888888888889,-20.186023338937318,154.5031437673357,-45.622851502860705,-283.7283984699096,-11.013599038292206,261.0013290442381
0.8989898989898991,-20.06367792126763,161.14243913865204,-47.54775741805951,-293.4344929940251,-13.460513405223303,269.647093942533
0.9090909090909092,-19.94133250359794,167.78173450996826,-49.472663333258296,-303.1405875181405,-15.907427772154385,278.2928588408278
0.9191919191919192,-19.818987085928256,174.42102988128448,-51.39756924845709,-312.84668204225585,-18.354342139085468,286.93862373912265
0.9292929292929294,-19.696641668258568,181.06032525260082,-53.322475163655895,-322.5527765663713,-20.80125650601658,295.58438863741753
0.9393939393939394,-19.57429625058888,187.69962062391704,-55.24738107885469,-332.25887109048665,-23.24817087294766,304.23015353571236
0.9494949494949496,-19.45195083291919,194.33891599523338,-57.17228699405349,-341.96496561460214,-25.69508523987877,312.8759184340073
0.9595959595959597,-19.329605415249507,200.9782113665496,-59.097192909252286,-351.6710601387175,-28.14199960680984,321.5216833323021
0.9696969696969697,-19.20725999757982,207.61750673786582,-61.022098824451064,-361.3771546628329,-30.588913973740922,330.1674482305969
0.9797979797979799,-19.08491457991013,214.25680210918216,-62.94700473964987,-371.08324918694836,-33.03582834067203,338.8132131288918
0.98989898989899,-18.96256916224044,220.89609748049838,-64.87191065484866,-380.78934371106374,-35.482742707603116,347.4589780271866
1.0,-18.840223744570757,227.53539285181466,-66.79681657004745,-390.4954382351791,-37.9296570745342,356.10474292548145
