t,ax,ay,az,gx,gy,gz
0.0,14.221191,14.257813,75.341797,13.122559,-9.155273,8.911133
0.010101010101010102,18.709412153558866,29.384175436627544,78.46970393789576,5.872982899031581,-19.011438215881547,3.372131297631304
0.020202020202020204,21.466247636255545,38.495771576935994,83.38593821148228,0.10285186138370506,-27.50424525371085,-1.984557895592246
0.030303030303030304,22.44366202742309,41.5086173748703,90.87687953863723,-4.43349708098118,-34.625058771113736,-7.399305501578638
0.04040404040404041,22.000933631311558,41.629361962482186,117.97993585866982,-14.817501941500204,-41.346487918581445,-18.70901578980771
0.05050505050505051,21.29260226221154,37.150213981629484,138.1218809144487,-23.30972348531093,-43.05625008010048,-26.786411631353644
0.06060606060606061,20.373811445919753,27.762899454319307,152.08178616437294,-30.335501546165283,-39.89479548630225,-31.7244586813659
0.07070707070707072,20.382040615528194,-1.9115623310100673,171.1735081936991,-44.90116950468374,-28.33278252448858,-31.312999526808518
0.08080808080808081,21.47863439921153,-27.83608188527326,186.8555093408737,-51.63328025252798,-16.2678770743187,-23.766713667419797
0.09090909090909091,23.43238330661499,-49.249619982953995,199.31912456930903,-51.65336641959838,-4.216890443047209,-10.61876832950642
0.10101010101010102,24.90166794325717,-49.15830871966657,205.37058665858223,-47.08779169485941,1.5108310327307688,-0.9065451644981692
0.11111111111111112,28.384493351261863,-34.764614157981576,214.95405227391254,-38.261445211324,12.423908276396013,10.62838146095309
0.12121212121212122,32.97047018301052,-11.707771553976103,225.80259459794036,-27.080791602884926,26.327755870106568,21.939993424164484
0.13131313131313133,35.34164266974698,2.114428725792054,227.50455084507584,-20.429942110042862,35.70504039061882,21.650826113764126
0.14141414141414144,37.90040450376163,17.340143807397144,220.03668271964133,-7.279671586035326,49.875141833828266,15.53487331078891
0.15151515151515152,40.19545374486031,31.332914499559337,207.4653919886606,7.9072570408317215,65.23521372608805,6.505404147818933
0.16161616161616163,40.178833556756956,32.637602669496005,195.8727815136901,12.560921282770346,70.88609197728661,0.14816585993380915
0.17171717171717174,37.510584355927364,26.929417869817204,178.37687612450014,13.856562489494605,75.42205182338243,-7.019906356581258
0.18181818181818182,33.387736518676626,17.794160840373262,159.3790667547886,12.562362335120875,78.73867924903345,-13.209727209263487
0.19191919191919193,28.462052934661443,8.854337606242876,148.18129026719083,6.123013355878558,78.362353250069,-11.788052963935135
0.20202020202020204,26.56235713053895,6.455521268384692,142.7008608116749,2.168234743714508,78.04885442076522,-9.851763701249126
0.21212121212121213,25.91428449790284,7.999632457458513,139.23459629220002,-1.0884677958564533,77.60688891745536,-7.888361202826025
0.22222222222222224,24.924087183945396,13.800537419495644,133.70599552390374,-5.95693747216417,76.534175385993,-6.733130777884145
0.23232323232323235,23.756331033029017,15.700711512256232,130.6214468410071,-8.266910211892396,75.58481000298681,-6.762200264791886
0.24242424242424243,22.50990064465603,14.95868774398587,128.3614992865447,-10.446776377444062,74.67146258334402,-6.998499344824836
0.25252525252525254,21.232073504021084,10.453100467830655,125.66478510574296,-15.549789418017948,73.71724032871974,-6.376180896866884
0.26262626262626265,20.230016043880067,7.519355306429178,125.28439226461293,-19.320941649690756,73.61004885123852,-3.225360044994529
0.27272727272727276,18.965475894868995,5.198829188644177,125.94987686111322,-22.71638049792679,74.65729849792679,0.3340169377518414
0.2828282828282829,16.714677267751906,3.1917993827295126,127.47749462980808,-26.251027406885022,78.19194540688503,2.771705149776088
0.29292929292929293,15.171333233975632,3.258763027345344,125.08761279386582,-25.17564865369633,83.17231155860631,5.186273574394248
0.30303030303030304,14.119073447268597,4.0030040580272335,121.53800642376977,-21.959315609867833,87.75066199113496,6.777884737253807
0.31313131313131315,13.723978331149343,4.801426098766631,118.17969490242302,-17.061777946474816,90.22000832119495,6.36632667842902
0.32323232323232326,13.139293184021495,3.9932100540255897,110.14080116915153,-5.983352867252348,93.64026752390583,2.4419287158224092
0.33333333333333337,12.484149456791089,2.3723670413997184,102.11529039491339,2.962545296601459,96.35365358687991,-1.2469015696809316
0.3434343434343435,11.77936802621237,-0.0984174267329978,96.35552658104183,4.7042462584841935,97.20425145325721,-2.786079040437116
0.3535353535353536,8.577348452393109,-4.99040021180159,89.10411834769633,4.246850650470949,95.45599425523163,-2.3281821282444652
0.36363636363636365,5.894949004004634,-8.599948157099323,84.6189003351146,2.822940025032189,93.68497331786848,-0.018070685689753896
0.37373737373737376,5.0484609965419045,-9.055748981565579,85.56305980494034,0.5032367929607644,92.83034535510328,4.8248186584815835
0.38383838383838387,3.3682734423964416,-7.477820484231607,87.92573519971724,-7.070356816128897,96.19828934776476,7.218502228844912
0.393939393939394,1.3728060482649196,-6.418903298701437,86.45346060701439,-16.00236626180276,100.96737350607997,9.853523921241194
0.4040404040404041,-0.935156037889469,-6.811748222940585,77.99911786955576,-25.823480651869502,106.98280629627432,13.577363107919906
0.4141414141414142,-2.3503336408179125,-8.099301446206114,69.97127938503455,-30.60966452846204,107.76349060179608,15.495673654010485
0.42424242424242425,-3.6953153092740507,-10.502104589582276,59.78571080789623,-32.32889154857028,104.29953349329226,17.97693666355754
0.43434343434343436,-5.12116221631581,-14.33658656262863,46.38919107299707,-30.637208072846057,95.76056129849192,21.64225009105621
0.4444444444444445,-5.849860900076169,-14.828440008615987,42.854924260607916,-26.825823421292007,88.67266640917741,23.90519610185591
0.4545454545454546,-6.195617219624284,-9.921269114670839,42.36667836181184,-22.0139537844337,79.32495145618691,25.742636619960027
0.4646464646464647,-6.154945100871561,1.43441576153214,44.28640769792995,-16.238498261325677,66.83857901316344,27.247509012052966
0.4747474747474748,-5.7331516457589125,8.68917450237421,48.507947424828316,-15.480999837046397,61.69286140894178,20.70654069218957
0.48484848484848486,-5.685713585311074,13.034610206134012,55.54741319266437,-12.974623812255622,57.86380646126908,15.151140149733429
0.494949494949495,-6.1005901057551535,14.344317561866406,65.65900503008857,-8.05305255215703,54.975941766172134,11.368445285753317
0.5050505050505051,-8.931428928980978,9.516896335948871,67.40350522149149,-4.856707077726938,57.806984388570655,8.173416810875734
0.5151515151515152,-11.147466545936416,6.056935520734999,66.57592318991516,-4.540624098063734,60.3841890134076,6.259869927218621
0.5252525252525253,-12.718361283156538,3.998603707716811,63.37775964106213,-6.998217542240314,62.438965,5.6184084466698465
0.5353535353535354,-16.417730309742716,-5.11566461320527,55.36110600596224,-8.543008828230425,62.438965,5.740366004010613
0.5454545454545455,-18.599698549426932,-12.074354555685042,49.86085584772962,-7.65206252928985,61.51939777833474,6.888989389535681
0.5555555555555556,-19.395129540796685,-16.968817291748056,46.56765568526648,-4.483218758856816,59.65674681921757,9.097001000097592
0.5656565656565657,-19.77498360927079,-17.90193811277024,40.67165486794991,1.2145970035523135,53.876354232459946,15.909606597095575
0.5757575757575758,-19.459718030691278,-15.203241895210892,36.925868144060715,5.534926460179968,46.926770212989894,19.050144726879623
0.5858585858585859,-18.874207845297335,-8.798139061037416,35.095215,8.84518366090066,39.38947959718374,18.837710416802647
0.595959595959596,-21.98584245648415,6.497309564553104,35.095215,13.648102168486071,36.433837490406006,14.48634855704682
0.6060606060606061,-25.230578820739513,13.898897789957033,35.5909761278418,14.266423528211494,32.35712398620802,6.9273217458468235
0.6161616161616162,-28.409391612358448,15.428594963406436,36.47552115480949,11.928523293194912,27.740155504767454,-2.33684184863509
0.6262626262626263,-29.799437318612227,13.023067708346066,37.83227176925127,9.264963679222486,25.86734017250157,-5.541436987887188
0.6363636363636365,-31.189483024866025,10.61754045328567,39.189022383693064,6.601404065250032,23.994524840235663,-8.74603212713932
0.6464646464646465,-32.57952873111981,8.2120131982253,40.54577299813484,3.9378444512776056,22.12170950796978,-11.950627266391418
0.6565656565656566,-33.96957443737359,5.80648594316493,41.902523612576616,1.2742848373051796,20.248894175703896,-15.155222405643517
0.6666666666666667,-35.35962014362738,3.4009586881045326,43.25927422701841,-1.3892747766672748,18.376078843437988,-18.35981754489565
0.6767676767676768,-36.74966584988117,0.9954314330441623,44.61602484146018,-4.052834390639699,16.5032635111721,-21.56441268414775
0.686868686868687,-38.13971155613496,-1.4100958220162347,45.972775455901974,-6.716394004612155,14.630448178906198,-24.769007823399882
0.696969696969697,-39.52975726238874,-3.815623077076605,47.329526070343746,-9.379953618584583,12.757632846640313,-27.97360296265198
0.7070707070707072,-40.91980296864254,-6.221150332137,48.68627668478554,-12.043513232557036,10.884817514374408,-31.178198101904115
0.7171717171717172,-42.30984867489632,-8.62667758719737,50.04302729922732,-14.707072846529464,9.012002182108521,-34.382793241156214
0.7272727272727273,-43.6998943811501,-11.032204842257741,51.3997779136691,-17.370632460501888,7.139186849842638,-37.587388380408306
0.7373737373737375,-45.0899400874039,-13.43773209731814,52.756528528110884,-20.034192074474344,5.266371517576729,-40.79198351966044
0.7474747474747475,-46.479985793657676,-15.84325935237851,54.113279142552656,-22.69775168844677,3.393556185310846,-43.99657865891254
0.7575757575757577,-47.87003149991148,-18.24878660743891,55.47002975699445,-25.36131130241922,1.5207408530449413,-47.201173798164675
0.7676767676767677,-49.260077206165256,-20.654313862499272,56.82678037143623,-28.024870916391652,-0.3520744792209456,-50.405768937416774
0.7777777777777778,-50.650122912419036,-23.059841117559642,58.18353098587801,-30.688430530364077,-2.224889811486829,-53.61036407666887
0.787878787878788,-52.04016861867284,-25.46536837262004,59.5402816003198,-33.351990144336526,-4.097705143752737,-56.814959215921
0.797979797979798,-53.43021432492662,-27.87089562768041,60.89703221476157,-36.01554975830895,-5.970520476018624,-60.0195543551731
0.8080808080808082,-54.82026003118041,-30.27642288274081,62.25378282920336,-38.67910937228142,-7.843335808284525,-63.224149494425234
0.8181818181818182,-56.2103057374342,-32.68195013780118,63.61053344364514,-41.34266898625384,-9.716151140550412,-66.42874463367733
0.8282828282828284,-57.60035144368799,-35.08747739286158,64.96728405808693,-44.006228600226294,-11.58896647281632,-69.63333977292946
0.8383838383838385,-58.99039714994177,-37.49300464792195,66.32403467252871,-46.66978821419872,-13.4617818050822,-72.83793491218155
0.8484848484848485,-60.38044285619555,-39.89853190298232,67.68078528697049,-49.33334782817114,-15.334597137348087,-76.04253005143366
0.8585858585858587,-61.77048856244935,-42.30405915804271,69.03753590141227,-51.99690744214361,-17.207412469613995,-79.2471251906858
0.8686868686868687,-63.16053426870313,-44.70958641310308,70.39428651585405,-54.66046705611603,-19.080227801879882,-82.45172032993788
0.8787878787878789,-64.55057997495692,-47.11511366816348,71.75103713029584,-57.324026670088486,-20.953043134145783,-85.65631546919002
0.888888888888889,-65.9406256812107,-49.52064092322385,73.10778774473762,-59.98758628406091,-22.82585846641167,-88.86091060844211
0.8989898989898991,-67.3306713874645,-51.92616817828424,74.46453835917941,-62.65114589803336,-24.69867379867758,-92.06550574769425
0.9090909090909092,-68.72071709371829,-54.33169543334462,75.8212889736212,-65.31470551200579,-26.57148913094346,-95.27010088694635
0.9191919191919192,-70.11076279997206,-56.737222688404984,77.17803958806297,-67.97826512597821,-28.444304463209345,-98.47469602619844
0.9292929292929294,-71.50080850622587,-59.14274994346539,78.53479020250475,-70.64182473995066,-30.317119795475254,-101.67929116545058
0.9393939393939394,-72.89085421247964,-61.54827719852575,79.89154081694653,-73.3053843539231,-32.18993512774114,-104.88388630470268
0.9494949494949496,-74.28089991873344,-63.953804453586145,81.24829143138832,-75.96894396789556,-34.06275046000704,-108.0884814439548
0.9595959595959597,-75.67094562498721,-66.35933170864652,82.6050420458301,-78.63250358186798,-35.935565792272925,-111.29307658320691
0.9696969696969697,-77.060991331241,-68.76485896370689,83.96179266027187,-81.2960631958404,-37.80838112453881,-114.497671722459
0.9797979797979799,-78.4510370374948,-71.17038621876729,85.31854327471368,-83.95962280981286,-39.68119645680471,-117.70226686171114
0.98989898989899,-79.84108274374859,-73.57591347382765,86.67529388915544,-86.62318242378528,-41.5540117890706,-120.90686200096324
1.0,-81.23112845000236,-75.98144072888803,88.03204450359722,-89.2867420377577,-43.42682712133649,-124.11145714021534
